SpectraSmart Spectrum 2.9.0.0
--------- Device Information -----------
Spectrum Name :  反射率_0
Saving Time :  2024/05/01 15:42:46
Spectro-Module Model Name : SE2030-DUVN
Spectro-Module Serial Number : OS361AC55029948
Wavelength Start : 200
Wavelength End : 1025
Wavelength Unit : Wavelength(nm)
Spectrum Unit : Reflectance(%)
-----------Spectrum Setting ------------
Integration Time : 20ms
Average : 10
Boxcar : 0
Background removal :  enabled
linearity correction :  enabled
SC :  disabled
Intensity correction :  disabled
DWT denoise :  enabled
savitzky-golay :  disabled
FFT :  disabled
Running average :  disabled
Kalman :  disabled
High pass :  disabled
---------------BEGIN--------------------
Wavelength(nm)             Reflectance(%)
200.29               0
200.75        347.7591
201.21        1281.951
201.67       -490.1308
202.13       -180.8317
202.58       -94.13795
203.04       -48.97286
203.50       -23.96445
203.96       -15.36663
204.42       -21.48006
204.88       -61.24084
205.34       -1190.641
205.80        186.6022
206.26        128.4281
206.72        126.3041
207.18        225.7189
207.64       -120.7766
208.10       -18.33125
208.55      -0.2784975
209.01        2.821579
209.47      0.03660031
209.93       -6.427369
210.39       -16.85855
210.85       -32.07375
211.31       -58.73981
211.77       -144.8652
212.23        520.8341
212.69        119.7844
213.14         105.988
213.60        182.4257
214.06       -791.8421
214.52       -125.4831
214.98       -86.65478
215.44       -87.60567
215.90       -129.3265
216.36       -868.8937
216.81        274.3261
217.27        342.3132
217.73       -776.9046
218.19       -183.0039
218.65       -144.1919
219.11       -168.0494
219.57       -286.0204
220.02       -759.2614
220.48       -365.9541
220.94       -114.8547
221.40       -54.05019
221.86       -33.53016
222.32       -25.72618
222.77       -22.43241
223.23       -21.47615
223.69       -21.04519
224.15       -18.33595
224.61       -14.09995
225.06       -10.52023
225.52        -8.58497
225.98        -8.18917
226.44       -8.944736
226.90       -10.81521
227.36       -13.27522
227.81       -14.11164
228.27       -12.71131
228.73       -10.57654
229.19       -8.998883
229.65       -8.745277
230.10        -9.67197
230.56       -11.21618
231.02       -13.10367
231.48       -14.18099
231.93       -13.79386
232.39       -12.81899
232.85       -11.14985
233.31       -8.487667
233.77       -5.257417
234.22       -1.692848
234.68        1.016292
235.14        1.670754
235.60     -0.01311314
236.05       -4.450113
236.51       -11.40887
236.97       -18.06039
237.43       -21.21814
237.88       -20.22497
238.34       -17.40561
238.80       -17.47368
239.26       -22.48479
239.71       -33.48779
240.17       -50.97618
240.63       -67.95087
241.08       -72.79034
241.54       -64.57819
242.00       -52.26303
242.46        -43.7588
242.91       -38.84099
243.37       -35.90644
243.83       -28.16486
244.28       -1.735791
244.74        28.49772
245.20        45.99692
245.66        51.81455
246.11         50.1048
246.57        42.60051
247.03        27.25823
247.48       -1.345297
247.94       -39.97384
248.40       -72.24043
248.85       -91.99438
249.31       -89.26283
249.77       -64.95804
250.22       -33.91023
250.68       -4.823545
251.14        15.08521
251.59        21.43416
252.05        14.28634
252.51       -13.59913
252.96       -88.46635
253.42       -205.9455
253.88       -211.2473
254.33       -112.9352
254.79       -48.66327
255.25       -24.80261
255.70       -18.47506
256.16       -17.51563
256.62       -16.36363
257.07       -11.80667
257.53       -5.600587
257.99      0.08234528
258.44        4.158763
258.90        5.772761
259.35         5.35847
259.81         3.93222
260.27        1.998203
260.72        0.186529
261.18       -1.097331
261.63       -1.992855
262.09       -2.416975
262.55       -2.225022
263.00       -1.560535
263.46      -0.6658798
263.91       0.2547176
264.37       0.8684671
264.83        1.138803
265.28         1.20555
265.74        1.046646
266.19       0.6100649
266.65     -0.01508775
267.11       -0.808915
267.56       -1.503881
268.02       -1.635501
268.47       -1.158386
268.93      -0.2612383
269.38       0.7296571
269.84         1.18942
270.30       0.9917496
270.75       0.3383605
271.21      -0.5163378
271.66       -1.253398
272.12       -1.704234
272.57       -1.976875
273.03       -2.033616
273.48       -1.814001
273.94       -1.378169
274.39      -0.7658992
274.85      -0.1443003
275.31       0.2704485
275.76       0.4327437
276.22        0.397048
276.67       0.2259666
277.13     0.006241791
277.58       -0.216933
278.04      -0.4375386
278.49      -0.6188783
278.95      -0.6710023
279.40      -0.6016931
279.86      -0.4502662
280.31      -0.2550625
280.77       -0.083206
281.22      0.04344942
281.68       0.1483662
282.13       0.1823122
282.59      0.07679816
283.04      -0.1533098
283.50      -0.4769223
283.95      -0.7656929
284.41      -0.8157638
284.86      -0.6065352
285.32      -0.2396111
285.77       0.1494645
286.22       0.3432514
286.68       0.3123405
287.13       0.1375646
287.59      -0.1154569
288.04      -0.3656282
288.50      -0.5503772
288.95      -0.7132997
289.41      -0.7796061
289.86      -0.6467628
290.32      -0.3357908
290.77       0.1223458
291.22       0.5580567
291.68       0.7143221
292.13       0.5563748
292.59       0.1813962
293.04      -0.2601339
293.50       -0.493052
293.95      -0.4629658
294.40      -0.2567662
294.86      0.02916771
295.31       0.2600724
295.77       0.3741656
296.22       0.4331859
296.68       0.4171246
297.13       0.3003379
297.58      0.09930631
298.04      -0.1656577
298.49      -0.4071283
298.95      -0.4618817
299.40      -0.3079681
299.85    -0.001647914
300.31       0.3513221
300.76       0.6184992
301.21       0.7472575
301.67       0.7833913
302.12       0.7437844
302.58       0.6658271
303.03       0.5728025
303.48       0.4650376
303.94       0.3717219
304.39       0.3400166
304.84       0.3726562
305.30       0.4486192
305.75       0.5507913
306.20       0.6408212
306.66        0.699864
307.11       0.7400064
307.57       0.7320167
308.02       0.6345168
308.47       0.4513384
308.93        0.204213
309.38     -0.04418843
309.83      -0.1738435
310.29      -0.1647041
310.74     -0.05232775
311.19      0.08932319
311.65       0.1351227
312.10      0.06282604
312.55     -0.08151505
313.00      -0.2404381
313.46      -0.3239439
313.91      -0.3095722
314.36      -0.2350939
314.82      -0.1149101
315.27      0.03563439
315.72       0.1925603
316.18       0.3507371
316.63       0.4702991
317.08       0.4717303
317.53       0.3484914
317.99       0.1318504
318.44      -0.1220914
318.89      -0.2892129
319.35      -0.3336522
319.80      -0.2926991
320.25      -0.2065505
320.70      -0.1534691
321.16      -0.1574598
321.61      -0.1853289
322.06      -0.2285983
322.51      -0.2755424
322.97      -0.3140719
323.42      -0.3539719
323.87      -0.3661737
324.32      -0.2965885
324.78      -0.1460531
325.23      0.06632925
325.68       0.2820819
326.13       0.4085358
326.59       0.4191251
327.04       0.3393258
327.49       0.2018848
327.94      0.06929334
328.39     -0.03091868
328.85       -0.107127
329.30      -0.1684278
329.75      -0.2188976
330.20      -0.2624781
330.66      -0.2932028
331.11      -0.3097169
331.56      -0.3101382
332.01      -0.2981621
332.46      -0.2753701
332.92      -0.2689144
333.37      -0.3155802
333.82      -0.4204035
334.27      -0.5679603
334.72      -0.7066358
335.17      -0.7460673
335.63      -0.6694566
336.08      -0.5067311
336.53      -0.3044322
336.98      -0.1389624
337.43     -0.03813667
337.88      0.02294799
338.34      0.03334792
338.79     -0.02797838
339.24      -0.1495084
339.69      -0.3269954
340.14      -0.4890477
340.59      -0.5186383
341.05      -0.4044477
341.50      -0.1808337
341.95      0.06055631
342.40         0.16608
342.85      0.09940775
343.30     -0.08026525
343.75       -0.315606
344.20      -0.5163865
344.66      -0.6426237
345.11      -0.7332674
345.56      -0.7605304
346.01      -0.6829942
346.46       -0.511446
346.91      -0.2649795
347.36     -0.03353485
347.81       0.0455131
348.26     -0.05047932
348.72      -0.2716404
349.17      -0.5499074
349.62      -0.7408946
350.07      -0.8019899
350.52      -0.7712902
350.97      -0.6902555
351.42      -0.6318448
351.87      -0.6170942
352.32      -0.6122819
352.77      -0.6105236
353.22      -0.6033769
353.67      -0.5880482
354.13      -0.5823053
354.58      -0.5674689
355.03      -0.4972137
355.48      -0.3703666
355.93      -0.1937085
356.38     -0.03989519
356.83     -0.03349031
357.28      -0.1865225
357.73      -0.4453232
358.18       -0.695078
358.63      -0.7646684
359.08      -0.6239432
359.53      -0.3367342
359.98      0.01420035
360.43       0.2815873
360.88       0.4100699
361.33       0.4485184
361.78       0.4054083
362.23       0.2959588
362.68       0.1432394
363.13     -0.06135616
363.58      -0.2435571
364.03      -0.2778264
364.48      -0.1458644
364.93       0.1168609
365.38       0.3992508
365.83       0.5240161
366.28       0.4517044
366.73       0.2336945
367.18      -0.0344174
367.63      -0.1930988
368.08      -0.1946989
368.53     -0.08558814
368.98      0.06179423
369.43       0.1415177
369.88       0.1231901
370.33      0.03133268
370.78     -0.07468393
371.23     -0.09453869
371.68    -0.007802428
372.13       0.1498215
372.58        0.282414
373.03        0.247002
373.48      0.02636202
373.93      -0.3210177
374.38      -0.6740091
374.83      -0.8339978
375.28      -0.7509447
375.72      -0.4940496
376.17      -0.1661411
376.62      0.08618905
377.07       0.2128478
377.52       0.2549933
377.97       0.2294326
378.42       0.1633391
378.87       0.0765867
379.32     -0.03906453
379.77      -0.1582509
380.22      -0.2373222
380.67       -0.265331
381.11      -0.2434452
381.56       -0.188798
382.01      -0.1365528
382.46     -0.09709369
382.91     -0.06071298
383.36     -0.02651362
383.81      0.01164691
384.26      0.04933615
384.71      0.06659089
385.15      0.06891447
385.60      0.07803895
386.05      0.09158088
386.50       0.1176764
386.95       0.1102146
387.40    -0.004133151
387.85      -0.2158347
388.29      -0.4898648
388.74      -0.7112852
389.19      -0.7384224
389.64      -0.5574794
390.09      -0.2310286
390.54       0.1359982
390.98       0.3747374
391.43       0.4283164
391.88       0.3637026
392.33       0.2293535
392.78       0.0964409
393.23    -0.006137485
393.67      -0.1033737
394.12      -0.1643784
394.57      -0.1469901
395.02     -0.04845798
395.47       0.1273592
395.91       0.3185334
396.36       0.4085673
396.81         0.37996
397.26       0.2605336
397.71       0.1246229
398.15      0.08968106
398.60       0.1747194
399.05       0.3299565
399.50       0.4884163
399.95       0.5642394
400.39       0.5371467
400.84       0.4299009
401.29       0.2849895
401.74       0.1791559
402.18       0.1363816
402.63       0.1369004
403.08       0.1641778
403.53       0.1967393
403.97        0.224853
404.42       0.2525141
404.87       0.2739994
405.32       0.2741021
405.76       0.2500877
406.21       0.2100942
406.66       0.1627119
407.11       0.1261004
407.55       0.1080616
408.00       0.1052465
408.45       0.1209572
408.90       0.1592763
409.34       0.2163919
409.79       0.2812758
410.24       0.3431799
410.68       0.3832919
411.13        0.398551
411.58       0.3981515
412.03       0.3797734
412.47       0.3408847
412.92       0.2899148
413.37       0.2251343
413.81       0.1762238
414.26       0.1894206
414.71       0.2686476
415.15       0.4076256
415.60       0.5499616
416.05       0.6049026
416.49        0.550955
416.94       0.4161495
417.39       0.2724342
417.83       0.2375507
418.28       0.3367643
418.73       0.5302185
419.17       0.7457646
419.62       0.8576686
420.07       0.8421527
420.51         0.74323
420.96       0.6232103
421.41       0.5662296
421.85       0.5943829
422.30       0.6737955
422.74       0.7849127
423.19        0.899295
423.64        1.004833
424.08        1.114819
424.53        1.206228
424.98        1.243539
425.42        1.222964
425.87        1.164428
426.31        1.097849
426.76        1.088082
427.21        1.148347
427.65        1.259541
428.10         1.41678
428.54        1.609071
428.99        1.807917
429.44        2.013317
429.88         2.18377
430.33        2.254432
430.77        2.227489
431.22        2.129702
431.66        2.017796
432.11        1.998907
432.56        2.092991
433.00        2.276852
433.45        2.493263
433.89        2.617212
434.34        2.618519
434.78        2.689918
435.23        2.878779
435.67        3.036157
436.12        3.165104
436.57        3.363075
437.01        3.608681
437.46        3.787382
437.90         3.87943
438.35        3.925705
438.79        3.972269
439.24        4.081723
439.68         4.27591
440.13        4.563012
440.57        4.884826
441.02        5.110495
441.46        5.213364
441.91        5.215277
442.35        5.188996
442.80         5.33249
443.24        5.632481
443.69        5.851272
444.13        5.967236
444.58        6.172407
445.02        6.468348
445.47         6.73358
445.91        6.966896
446.36        7.241586
446.80        7.556746
447.24        7.876519
447.69        8.177632
448.13        8.434538
448.58        8.634531
449.02        8.781025
449.47        8.881145
449.91        8.939278
450.36        8.964903
450.80        8.960475
451.25        8.928544
451.69        8.865609
452.13        8.777274
452.58        8.670825
453.02        8.562203
453.47        8.481772
453.91        8.429745
454.36        8.394935
454.80        8.346217
455.24        8.230785
455.69        8.039119
456.13        7.782897
456.58         7.49927
457.02         7.23095
457.46         6.99426
457.91        6.781689
458.35        6.572063
458.79        6.321958
459.24        6.039259
459.68        5.759711
460.13        5.528989
460.57        5.292253
461.01        5.212104
461.46        5.148329
461.90        5.118398
462.34        5.048901
462.79         4.95131
463.23        4.811523
463.68        4.658505
464.12        4.528845
464.56        4.437212
465.01        4.378685
465.45        4.321765
465.89        4.219016
466.34        4.066216
466.78         3.87367
467.22        3.682742
467.67         3.57416
468.11        3.548577
468.55        3.595491
468.99        3.663483
469.44        3.679827
469.88        3.625647
470.32        3.517775
470.77        3.380182
471.21        3.246652
471.65        3.134005
472.10        3.030594
472.54        2.933403
472.98         2.84196
473.42        2.756341
473.87         2.68664
474.31        2.623557
474.75         2.55405
475.20        2.477508
475.64        2.392617
476.08        2.319144
476.52        2.294378
476.97        2.322165
477.41        2.383019
477.85        2.435119
478.29        2.482779
478.74        2.408746
479.18        2.308575
479.62        2.198683
480.06        2.169954
480.50        2.236145
480.95        2.321099
481.39        2.451197
481.83        2.479868
482.27         2.41143
482.72        2.261147
483.16        2.081898
483.60        1.990296
484.04         2.01281
484.48        2.092508
484.93        2.168711
485.37        2.242476
485.81        2.202512
486.25        2.048019
486.69        1.445995
487.14        1.441015
487.58        1.953094
488.02        2.056996
488.46         2.04016
488.90        2.107579
489.34        2.241382
489.79        2.346196
490.23        2.431936
490.67        2.451994
491.11         2.42294
491.55        2.348534
491.99        2.257036
492.43        2.193633
492.88        2.171252
493.32        2.170306
493.76        2.187316
494.20        2.220661
494.64        2.266346
495.08        2.324393
495.52        2.381201
495.96         2.42423
496.41        2.447428
496.85        2.429876
497.29        2.402183
497.73        2.447711
498.17        2.566976
498.61        2.687664
499.05        2.772311
499.49        2.818481
499.93        2.816282
500.37        2.751167
500.82        2.658621
501.26        2.602654
501.70        2.602538
502.14        2.640893
502.58        2.692616
503.02        2.716774
503.46        2.704441
503.90        2.672802
504.34         2.64385
504.78        2.650986
505.22        2.701819
505.66        2.780461
506.10        2.870009
506.54        2.945083
506.98        2.993892
507.42         3.02187
507.86        3.029056
508.30        3.015511
508.74        2.986227
509.18        2.945247
509.62        2.901587
510.06        2.871014
510.50        2.859732
510.94        2.864086
511.38        2.888227
511.82        2.936146
512.26        3.002538
512.70        3.082326
513.14        3.151757
513.58        3.174736
514.02        3.145086
514.46        3.073949
514.90        2.987568
515.34        2.930028
515.78        2.915115
516.22        2.932297
516.66          2.9667
517.10        2.993373
517.54        3.004138
517.98        3.006258
518.42         3.00631
518.86         3.01405
519.30        3.031133
519.74        3.051676
520.18        3.067825
520.62        3.069155
521.06        3.054945
521.50        3.031548
521.93        3.009269
522.37        3.000768
522.81        3.011635
523.25        3.037772
523.69        3.075135
524.13        3.117146
524.57        3.159582
525.01        3.201625
525.45        3.239807
525.89        3.269964
526.32        3.290084
526.76        3.297016
527.20        3.292435
527.64         3.27815
528.08        3.257583
528.52        3.236199
528.96        3.213092
529.40        3.186017
529.83        3.155857
530.27        3.122749
530.71         3.10182
531.15        3.118038
531.59        3.170507
532.03        3.247922
532.46        3.315283
532.90        3.314093
533.34        3.237815
533.78        3.108198
534.22        2.964612
534.66        2.870934
535.09        2.839964
535.53         2.84473
535.97        2.874098
536.41        2.920828
536.85        2.975303
537.28        3.037499
537.72        3.091389
538.16        3.117226
538.60        3.110752
539.04        3.073246
539.47        3.026584
539.91        3.010352
540.35        3.031096
540.79        3.081005
541.22        3.134762
541.66        3.143796
542.10        3.109475
542.54        3.041277
542.97        2.971141
543.41        2.949258
543.85        2.982919
544.29        3.053651
544.72        3.133843
545.16         3.17993
545.60        3.180645
546.04         3.14854
546.47        3.097297
546.91        3.053194
547.35        3.024979
547.79        3.005172
548.22        2.987609
548.66        2.967946
549.10        2.944737
549.53        2.906885
549.97        2.888481
550.41        2.877875
550.84        2.883506
551.28        2.902333
551.72        2.924031
552.15        2.930297
552.59        2.919067
553.03        2.900535
553.46         2.88269
553.90        2.879508
554.34        2.894421
554.77         2.91838
555.21        2.942408
555.65        2.985172
556.08        2.986143
556.52        2.991978
556.96        2.990949
557.39         2.99387
557.83         3.00216
558.27        3.010456
558.70        3.009245
559.14        2.998367
559.57        2.949985
560.01        2.898064
560.45         2.84929
560.88        2.824265
561.32        2.833132
561.75        2.867753
562.19        2.909595
562.63        2.946882
563.06         2.95869
563.50         2.89701
563.93        2.790034
564.37        2.737285
564.80        2.746746
565.24        2.773359
565.68        2.805098
566.11        2.841387
566.55         2.87331
566.98        2.898254
567.42        2.913825
567.85         2.91961
568.29        2.914419
568.72        2.896032
569.16         2.86106
569.60        2.806336
570.03         2.73631
570.47        2.648086
570.90        2.576344
571.34         2.53459
571.77        2.531024
572.21        2.536654
572.64        2.538746
573.08        2.558156
573.51        2.618715
573.95        2.504114
574.38        2.314372
574.82        2.280253
575.25        2.285059
575.69        2.361496
576.12        2.435163
576.56        2.511483
576.99        2.500471
577.42        2.401078
577.86        2.369106
578.29        2.262886
578.73        2.161059
579.16        2.212485
579.60        2.349078
580.03         2.42675
580.47        2.405243
580.90        2.377302
581.33        2.435731
581.77        2.414564
582.20         2.14368
582.64        2.068592
583.07        2.166435
583.51        2.291751
583.94        2.415993
584.37         2.47797
584.81        2.445911
585.24        2.333298
585.68        2.216147
586.11         2.16056
586.54        2.208515
586.98        2.274289
587.41        2.341094
587.85        2.295745
588.28        2.204225
588.71        2.188638
589.15        2.270775
589.58        2.261812
590.01        2.333138
590.45         2.33889
590.88        2.339671
591.31        2.356531
591.75        2.388142
592.18        2.393847
592.61        2.337558
593.05        2.311562
593.48         2.13224
593.91        2.047605
594.35         2.08894
594.78        2.158324
595.21         2.25033
595.65        2.252102
596.08        2.181643
596.51        2.204977
596.94        2.272907
597.38        2.311123
597.81        2.304815
598.24        2.275245
598.68         2.30879
599.11        2.288117
599.54        2.193168
599.97        2.104178
600.41         2.10853
600.84        2.087371
601.27        2.092246
601.70          2.1365
602.14        2.187387
602.57        2.201789
603.00        2.160871
603.43        2.073816
603.87        1.992657
604.30         1.94879
604.73        1.958709
605.16        2.015049
605.60        2.089285
606.03        2.109766
606.46        2.072285
606.89         2.05754
607.32        2.069472
607.76        2.047577
608.19         1.99396
608.62        1.956505
609.05        1.923503
609.48        1.912147
609.92        1.917034
610.35        1.963475
610.78        1.991405
611.21        2.010424
611.64        2.000733
612.07        1.968385
612.50        1.926854
612.94        1.898624
613.37        1.893607
613.80        1.909308
614.23        1.929664
614.66        1.943013
615.09        1.912181
615.52        1.871784
615.96        1.831486
616.39         1.82062
616.82        1.843475
617.25        1.891524
617.68         1.94135
618.11        1.944233
618.54        1.900256
618.97        1.851856
619.40        1.818047
619.84        1.805134
620.27         1.82135
620.70        1.867755
621.13        1.922058
621.56        1.952365
621.99        1.942795
622.42        1.876247
622.85        1.778705
623.28        1.730126
623.71        1.711143
624.14        1.723646
624.57        1.744607
625.00        1.755205
625.43        1.748219
625.86        1.734114
626.29        1.719798
626.72        1.703196
627.15        1.706097
627.58        1.703514
628.01        1.698177
628.44        1.694853
628.87        1.687969
629.30        1.660076
629.73        1.616015
630.16        1.580497
630.59        1.556763
631.02        1.532693
631.45        1.513295
631.88        1.511227
632.31        1.526682
632.74        1.555524
633.17        1.586655
633.60        1.602138
634.03        1.597153
634.46        1.575684
634.89        1.547147
635.32        1.528183
635.75         1.52344
636.18        1.527964
636.61          1.5346
637.04         1.53178
637.47        1.517248
637.89        1.496153
638.32        1.474021
638.75        1.460318
639.18        1.458352
639.61        1.458527
640.04         1.47052
640.47        1.484075
640.90        1.499949
641.33         1.51612
641.76         1.52812
642.18        1.530913
642.61        1.522865
643.04        1.501905
643.47         1.46797
643.90        1.442186
644.33        1.395639
644.76        1.351781
645.18        1.307189
645.61        1.280281
646.04        1.269159
646.47        1.263045
646.90        1.255635
647.33        1.244013
647.75        1.225108
648.18        1.197039
648.61        1.168949
649.04        1.157729
649.47        1.165388
649.89        1.189309
650.32        1.214975
650.75        1.218097
651.18         1.19603
651.61        1.172079
652.03        1.152724
652.46        1.127458
652.89        1.104295
653.32        1.122135
653.74        1.161011
654.17        1.159039
654.60        1.161412
655.03        1.139976
655.46        1.145273
655.88        1.205792
656.31        1.048027
656.74       0.6699511
657.16       0.6544026
657.59       0.9314224
658.02        1.294916
658.45        1.162468
658.87        1.137514
659.30        1.033589
659.73          0.8885
660.15       0.9605989
660.58        1.139951
661.01         1.23401
661.44        1.201056
661.86        1.111084
662.29        1.011143
662.72       0.9678022
663.14       0.9994063
663.57        1.065072
664.00        1.122281
664.42        1.121943
664.85        1.053525
665.27       0.9325674
665.70       0.8077664
666.13       0.7461304
666.55       0.7659533
666.98       0.8458823
667.41        0.946245
667.83        1.000751
668.26       0.9893582
668.69       0.9333572
669.11       0.8668772
669.54       0.8511608
669.96       0.8977014
670.39       0.9785401
670.82        1.062101
671.24        1.100598
671.67        1.077766
672.09        1.014272
672.52        0.931932
672.94       0.8542205
673.37       0.7960102
673.80        0.749956
674.22       0.7235585
674.65       0.7273126
675.07       0.7618605
675.50       0.8221172
675.92       0.8934164
676.35        0.947745
676.77       0.9774091
677.20       0.9830207
677.62       0.9719566
678.05        0.954452
678.47        0.936362
678.90       0.9165788
679.32       0.8933237
679.75       0.8661665
680.17       0.8360497
680.60       0.8067091
681.02       0.7864237
681.45       0.7862892
681.87       0.8075777
682.30       0.8454416
682.72       0.8877274
683.15       0.9131377
683.57       0.9172217
684.00       0.9054682
684.42       0.8876569
684.85       0.8780746
685.27       0.8816102
685.70       0.8900779
686.12       0.9035266
686.54        0.920088
686.97       0.9376191
687.39       0.9589978
687.82       0.9731789
688.24       0.9577842
688.66        0.912515
689.09       0.8483551
689.51        0.785583
689.94       0.7537186
690.36       0.7618533
690.78       0.8053242
691.21       0.8591661
691.63       0.8807116
692.06       0.8609821
692.48        0.815398
692.90       0.7688226
693.33       0.7592775
693.75       0.7962512
694.17       0.8659778
694.60       0.9389207
695.02       0.9749522
695.44       0.9608743
695.87       0.9066525
696.29       0.8364062
696.71       0.7953056
697.14       0.7950022
697.56       0.8215785
697.98       0.8525326
698.41       0.8546301
698.83        0.818627
699.25       0.7561875
699.68       0.6946667
700.10       0.6716005
700.52        0.700286
700.94        0.767583
701.37       0.8394255
701.79       0.8772274
702.21        0.863004
702.64       0.8101012
703.06       0.7469254
703.48         0.72703
703.90       0.7613409
704.33       0.8342513
704.75       0.9029823
705.17       0.9209315
705.59       0.8714868
706.01       0.7746859
706.44       0.6639113
706.86       0.5886819
707.28       0.5673413
707.70       0.5845827
708.12       0.6207826
708.55        0.645856
708.97        0.650423
709.39       0.6444711
709.81        0.635917
710.23       0.6371353
710.66       0.6511248
711.08       0.6691474
711.50       0.6853004
711.92       0.6928158
712.34       0.6896157
712.76       0.6799977
713.19       0.6647463
713.61       0.6449995
714.03       0.6242058
714.45        0.604977
714.87       0.5943269
715.29        0.602722
715.71       0.6311719
716.13       0.6746764
716.56       0.7267591
716.98       0.7775817
717.40       0.8197869
717.82       0.8546073
718.24       0.8751988
718.66        0.872375
719.08       0.8472294
719.50       0.8029512
719.92       0.7556092
720.34       0.7322953
720.76       0.7386206
721.19       0.7654507
721.61       0.7985604
722.03       0.8125055
722.45       0.7994007
722.87       0.7675665
723.29       0.7223028
723.71       0.6724202
724.13       0.6248505
724.55       0.5796221
724.97       0.5436387
725.39       0.5280893
725.81        0.534217
726.23       0.5575203
726.65       0.5926048
727.07       0.6292614
727.49       0.6617233
727.91       0.6913463
728.33        0.709524
728.75       0.7040586
729.17       0.6748279
729.59        0.625248
730.01       0.5735809
730.43       0.5515638
730.85       0.5666097
731.27       0.6090765
731.69       0.6600483
732.10         0.68985
732.52       0.6881308
732.94        0.666634
733.36        0.635105
733.78       0.6098133
734.20        0.597986
734.62       0.5951011
735.04       0.6018457
735.46       0.6194555
735.88       0.6472867
736.30       0.6856936
736.72       0.7287036
737.13       0.7684616
737.55       0.7970806
737.97       0.8061435
738.39       0.8000302
738.81        0.799223
739.23       0.7999983
739.65       0.7780289
740.06       0.7242682
740.48       0.6486865
740.90       0.5509439
741.32        0.430316
741.74        0.323344
742.16       0.2925934
742.57        0.355131
742.99       0.4871086
743.41       0.6497028
743.83       0.7864127
744.25        0.875944
744.67       0.9203921
745.08        0.932803
745.50       0.9390935
745.92       0.9463737
746.34       0.9485204
746.75       0.9187819
747.17       0.8206564
747.59       0.6549401
748.01       0.4412194
748.42       0.2398117
748.84       0.1586534
749.26        0.217463
749.68       0.3850011
750.09       0.5905361
750.51       0.7119429
750.93       0.7225929
751.35       0.6503925
751.76       0.5450354
752.18       0.4970825
752.60         0.52797
753.01       0.6119995
753.43       0.6998765
753.85       0.7203527
754.27       0.6566631
754.68       0.5342523
755.10       0.4085194
755.52       0.3556958
755.93       0.3934879
756.35       0.4980681
756.77       0.6176981
757.18       0.6717753
757.60       0.6390296
758.02       0.5448808
758.43       0.4384017
758.85       0.3960427
759.26       0.4339836
759.68       0.5209557
760.10       0.6147252
760.51       0.6486871
760.93       0.6064757
761.34       0.5111304
761.76       0.4107997
762.18       0.3655178
762.59       0.3908108
763.01       0.4576374
763.42       0.5514736
763.84        0.632121
764.26        0.682793
764.67        0.716763
765.09       0.7165344
765.50       0.6494665
765.92       0.5251948
766.33       0.3508554
766.75       0.1857548
767.16       0.1322974
767.58       0.2172128
768.00       0.4063223
768.41       0.6462994
768.83       0.8330795
769.24       0.9384731
769.66       0.9805079
770.07       0.9669127
770.49       0.9085689
770.90       0.8166763
771.32       0.6832592
771.73       0.5465624
772.15       0.4894692
772.56       0.5219942
772.97         0.63257
773.39       0.7624721
773.80       0.8198901
774.22       0.7808565
774.63       0.6739233
775.05       0.5505367
775.46       0.4871087
775.88       0.5105216
776.29       0.5909256
776.70       0.7053224
777.12       0.8166133
777.53       0.9084696
777.95       0.9852725
778.36        1.031618
778.77        1.019442
779.19        0.949904
779.60       0.8339756
780.02       0.6988918
780.43       0.5873296
780.84       0.5149549
781.26       0.4728878
781.67       0.4621314
782.09       0.4861257
782.50       0.5369942
782.91       0.6197022
783.33       0.6943268
783.74       0.7010957
784.15       0.6261281
784.57       0.4884158
784.98       0.3391506
785.39       0.2796159
785.81       0.3356688
786.22       0.4780606
786.63        0.649685
787.04       0.7513071
787.46       0.7616897
787.87       0.7105762
788.28       0.6438409
788.70       0.6307786
789.11       0.6867175
789.52        0.782695
789.93       0.8825625
790.35       0.9296106
790.76       0.9107791
791.17       0.8457506
791.58       0.7532699
792.00       0.6622236
792.41       0.5801913
792.82        0.500966
793.23       0.4363672
793.65        0.411675
794.06       0.4230356
794.47       0.4581759
794.88       0.4962177
795.29       0.5124958
795.71       0.5027989
796.12       0.4762734
796.53       0.4377507
796.94       0.4040747
797.35       0.3849836
797.76       0.3689372
798.18       0.3820753
798.59       0.4657082
799.00       0.6202977
799.41       0.8353808
799.82        1.038382
800.23        1.105462
800.64        1.009143
801.06       0.7866489
801.47       0.5262797
801.88       0.3974344
802.29       0.4496683
802.70       0.6374936
803.11       0.8706143
803.52        1.004044
803.93       0.9933356
804.34       0.8736482
804.75       0.7086353
805.17       0.6060825
805.58       0.5987434
805.99       0.6611307
806.40       0.7248355
806.81       0.6825767
807.22       0.5173026
807.63       0.2704056
808.04      0.04175614
808.45    -0.009555256
808.86        0.149962
809.27       0.4655387
809.68       0.8264846
810.09        1.042018
810.50        1.050932
810.91       0.9074163
811.32       0.6846231
811.73       0.5089712
812.14         0.42844
812.55       0.4046283
812.96       0.4279174
813.37       0.4826512
813.78       0.5525329
814.19       0.6474957
814.60       0.7400517
815.01       0.7811509
815.42       0.7610535
815.83       0.6861868
816.24       0.5802779
816.65       0.4983017
817.05       0.4667686
817.46       0.4705755
817.87       0.4973069
818.28       0.5265201
818.69       0.5491294
819.10       0.5700162
819.51       0.5874974
819.92       0.5963039
820.33       0.5938434
820.74       0.5801223
821.14        0.549459
821.55       0.4996259
821.96       0.4329998
822.37       0.3575345
822.78       0.2941046
823.19       0.2778675
823.60        0.319976
824.00       0.4092577
824.41       0.5310459
824.82       0.6583486
825.23       0.7747481
825.64       0.8772935
826.04       0.9495659
826.45       0.9814672
826.86       0.9615082
827.27       0.8879039
827.68       0.7733661
828.08        0.643877
828.49       0.5100656
828.90         0.39348
829.31       0.2875701
829.72       0.1750356
830.12      0.05744849
830.53     -0.06729869
830.94      -0.1399722
831.35     -0.06090121
831.75       0.1805938
832.16       0.5284165
832.57       0.8495432
832.97       0.9389689
833.38       0.7552348
833.79        0.357241
834.20      -0.1157153
834.60       -0.421955
835.01      -0.4667525
835.42      -0.3172629
835.82     -0.07989546
836.23      0.06325656
836.64      0.06303618
837.04     -0.03750397
837.45      -0.1526481
837.86      -0.1527681
838.26    -0.005108251
838.67       0.2476635
839.08       0.4910847
839.48       0.5452268
839.89       0.3812075
840.29      0.05887404
840.70      -0.2485172
841.11      -0.2990305
841.51     -0.03795289
841.92       0.4313442
842.33       0.9551419
842.73        1.282849
843.14        1.314418
843.54        1.124016
843.95        0.817332
844.35       0.5477651
844.76       0.3938915
845.17       0.3135757
845.57       0.2767969
845.98       0.2243652
846.38       0.1430283
846.79      0.07002571
847.19      0.03638454
847.60       0.1125738
848.00       0.2925152
848.41       0.5188624
848.81       0.7362506
849.22       0.8362827
849.62       0.8073801
850.03       0.6888632
850.43       0.4933376
850.84       0.2701051
851.24      0.03920695
851.65      -0.1930077
852.05      -0.3512637
852.46      -0.2812289
852.86      0.01625529
853.27       0.4707262
853.67       0.9250826
854.07        1.130483
854.48        1.057966
854.88       0.7464886
855.29       0.3442305
855.69       0.1201195
856.10       0.1944602
856.50       0.4881527
856.90        0.837178
857.31        1.000819
857.71       0.9363196
858.12       0.6918147
858.52       0.3919934
858.92       0.2665236
859.33       0.3841746
859.73       0.6879095
860.13       0.9907331
860.54          1.0191
860.94       0.7172709
861.34       0.1628513
861.75       -0.393016
862.15      -0.5657068
862.55      -0.2490945
862.96       0.4135262
863.36        1.147296
863.76        1.459481
864.17        1.236408
864.57       0.6341719
864.97     -0.08085801
865.38      -0.4576952
865.78       -0.385718
866.18    -0.007721582
866.58       0.4891831
866.99        0.774322
867.39       0.7192133
867.79       0.4569629
868.19      0.07089538
868.60      -0.3376797
869.00      -0.7193013
869.40       -1.104224
869.80       -1.423538
870.21       -1.537538
870.61       -1.416401
871.01       -1.104162
871.41      -0.6978783
871.81      -0.3548271
872.22      -0.1224501
872.62      0.03657095
873.02       0.1108927
873.42      0.09258594
873.82     0.009737256
874.22       -0.124307
874.63      -0.2196857
875.03      -0.1189766
875.43       0.1939009
875.83       0.6593959
876.23        1.206899
876.63        1.644538
877.03        1.900406
877.44        2.154085
877.84        2.403209
878.24        1.888361
878.64        1.829025
879.04        1.279341
879.44       0.7463719
879.84       0.4211223
880.24       0.3610689
880.64       0.5288019
881.04       0.7518985
881.44       0.7670668
881.84       0.5148471
882.24      0.06248638
882.65      -0.3650756
883.05       -0.377983
883.45      0.09498508
883.85       0.8665912
884.25        1.629433
884.65         1.95795
885.05        1.758766
885.45        1.178085
885.85       0.3827896
886.25      -0.3365493
886.65      -0.8277563
887.05        -1.12568
887.45       -1.223144
887.85       -1.123048
888.25      -0.8475304
888.65      -0.4032469
889.04       0.1962872
889.44       0.8719483
889.84        1.553448
890.24         2.18371
890.64        2.645638
891.04        2.800326
891.44          2.6441
891.84        2.238919
892.24        1.703178
892.64        1.254549
893.04       0.9840485
893.44       0.8511863
893.83         0.85816
894.23       0.9597844
894.63        1.137442
895.03        1.416547
895.43        1.699754
895.83        1.802334
896.23        1.683319
896.63        1.382131
897.02        1.055028
897.42       0.9401661
897.82        1.068081
898.22         1.37147
898.62        1.696798
899.01        1.771714
899.41        1.529842
899.81        1.056796
900.21       0.5161436
900.61       0.1861207
901.00       0.1493203
901.40       0.3340307
901.80       0.6056331
902.20       0.7630547
902.59         0.74712
902.99       0.6122172
903.39       0.4313958
903.79       0.3156876
904.18       0.2937111
904.58       0.3244504
904.98       0.3530975
905.38        0.304009
905.77       0.1648542
906.17     -0.01620886
906.57      -0.1863993
906.96      -0.2632818
907.36      -0.2231358
907.76     -0.09078343
908.15       0.1105013
908.55       0.3240642
908.95       0.5211952
909.34       0.6931176
909.74        0.809746
910.14       0.8694879
910.53       0.8587843
910.93       0.7920387
911.33       0.6242058
911.72       0.2800171
912.12      -0.1997905
912.52      -0.7792783
912.91       -1.323685
913.31       -1.585209
913.70       -1.512991
914.10        -1.17234
914.49      -0.6987318
914.89      -0.3345942
915.29      -0.1493558
915.68      -0.1126695
916.08      -0.1339967
916.47     -0.08637143
916.87      0.06889655
917.26       0.2913123
917.66       0.4621927
918.05       0.4498878
918.45       0.2342185
918.84      -0.1351897
919.24      -0.4831125
919.64      -0.5521075
920.03       -0.269815
920.42       0.2898384
920.82        0.890685
921.21        1.264315
921.61        1.330788
922.00        1.131676
922.40       0.8579623
922.79       0.7817488
923.19       0.9700053
923.58        1.334239
923.98         1.62379
924.37        1.569008
924.77        1.115584
925.16        0.369437
925.55      -0.4362605
925.95      -0.8947266
926.34      -0.9079772
926.74       -0.584828
927.13     -0.05389402
927.52       0.4176663
927.92       0.7152565
928.31       0.8805009
928.70       0.9299824
929.10       0.9136143
929.49        0.841934
929.89       0.7293313
930.28       0.5049435
930.67       0.0727599
931.07       -0.529505
931.46       -1.249942
931.85       -1.805182
932.24       -1.766136
932.64        -1.10229
933.03      0.04093887
933.42        1.271444
933.82         1.99282
934.21        2.081449
934.60        1.691189
934.99        1.080391
935.39       0.6582426
935.78       0.5404417
936.17       0.6242189
936.56       0.8270116
936.96       0.9845955
937.35        1.047117
937.74        1.092645
938.13        1.144134
938.53         1.22247
938.92        1.335651
939.31        1.433089
939.70        1.515204
940.09        1.601871
940.49        1.658572
940.88        1.668109
941.27         1.56839
941.66        1.252663
942.05       0.7057351
942.44     -0.01904112
942.84      -0.8204377
943.23       -1.602738
943.62       -2.221668
944.01       -2.667073
944.40       -2.877241
944.79        -2.78899
945.18       -2.434439
945.57       -1.871758
945.97       -1.270571
946.36      -0.7944214
946.75      -0.5497748
947.14      -0.5098209
947.53      -0.6451284
947.92      -0.8793364
948.31       -1.144496
948.70         -1.4157
949.09       -1.641918
949.48       -1.755136
949.87       -1.732809
950.26       -1.592338
950.65       -1.290135
951.04      -0.7800021
951.43      -0.1183728
951.82        0.622842
952.21        1.239817
952.60        1.450644
952.99        1.214353
953.38       0.6236143
953.77      -0.1282981
954.16      -0.6860901
954.55        -0.89859
954.94      -0.8299069
955.33      -0.5489992
955.72      -0.1773489
956.11       0.2128302
956.50       0.6185422
956.89         1.02613
957.28        1.408502
957.66        1.757517
958.05        2.041969
958.44        2.127885
958.83        1.809895
959.22        1.093554
959.61      0.07940172
960.00       -0.873364
960.39       -1.284099
960.78       -1.065542
961.16       -0.278724
961.55       0.6663145
961.94        1.119349
962.33       0.8994302
962.72       0.1399579
963.11      -0.6758981
963.49      -0.6481992
963.88       0.3803332
964.27        2.012189
964.66        3.570167
965.04        4.165055
965.43        3.620891
965.82        2.254509
966.21       0.4983551
966.60      -0.8239444
966.98       -1.387821
967.37       -1.378279
967.76       -1.007232
968.15      -0.6127469
968.53       -0.358274
968.92      -0.1357115
969.31    0.0007926589
969.69     -0.07436363
970.08      -0.3551247
970.47      -0.8175912
970.86       -1.379723
971.24       -1.842835
971.63       -2.077301
972.02       -2.164176
972.40       -2.006487
972.79       -1.494457
973.17      -0.6450399
973.56       0.3940533
973.95         1.31795
974.33         1.60981
974.72        1.152691
975.11      0.04533364
975.49       -1.385365
975.88        -2.25379
976.26         -2.2797
976.65       -1.660409
977.04      -0.8007241
977.42       -0.384326
977.81      -0.6566517
978.19       -1.416021
978.58       -2.150189
978.96       -2.261236
979.35       -1.620725
979.74      -0.4114889
980.12       0.9133499
980.51        1.248569
980.89       0.3481051
981.28       -1.401872
981.66        -3.34675
982.05        -4.24689
982.43       -3.875892
982.82       -2.543572
983.20      -0.6258926
983.59        1.160961
983.97        2.549708
984.35        3.673263
984.74        4.318427
985.12        4.333144
985.51        3.713828
985.89        2.425125
986.28       0.9955434
986.66       0.1124112
987.04       0.0632166
987.43       0.7322236
987.81        1.607769
988.20        1.714272
988.58        0.832424
988.96      -0.7835283
989.35       -2.367364
989.73       -2.753269
990.12       -1.720947
990.50       0.3699338
990.88        2.597211
991.27         3.46918
991.65         2.68306
992.03       0.7194999
992.42       -1.496204
992.80       -2.756475
993.18       -2.628087
993.56        -1.46993
993.95       0.1604017
994.33        1.440281
994.71        1.943374
995.10        1.927722
995.48        1.676972
995.86          1.7303
996.24        2.220917
996.63        2.888545
997.01        3.404173
997.39        3.233453
997.77        2.293558
998.15       0.7819727
998.54      -0.7909366
998.92        -1.66969
999.30       -1.550747
999.68      -0.6753124
1000.06       0.4644158
1000.45       0.9811077
1000.83       0.6216179
1001.21      -0.3337956
1001.59       -1.624446
1001.97       -2.791472
1002.35       -3.590605
1002.73       -4.159896
1003.12       -4.281519
1003.50       -3.676077
1003.88       -2.357213
1004.26      -0.4556163
1004.64        1.495079
1005.02         2.69724
1005.40        3.021083
1005.78        2.674691
1006.16        2.091864
1006.54        2.083564
1006.92        2.832892
1007.30        3.975033
1007.69        5.135458
1008.07        5.898416
1008.45        6.031561
1008.83        5.805575
1009.21        5.070484
1009.59        3.556746
1009.97        1.331591
1010.35       -1.593583
1010.73       -4.367091
1011.11         -5.4775
1011.49       -4.533739
1011.86       -1.699649
1012.24        1.656291
1012.62        2.915002
1013.00        1.212368
1013.38       -2.847117
1013.76       -7.591522
1014.14       -9.861532
1014.52       -8.636817
1014.90       -4.965408
1015.28      -0.0599115
1015.66        3.629745
1016.04        5.056102
1016.41        5.246589
1016.79        4.284194
1017.17        2.428449
1017.55      -0.2886773
1017.93       -4.413411
1018.31        -9.17092
1018.69       -11.17265
1019.06       -8.866836
1019.44       -4.169564
1019.82       0.3231888
1020.20        2.615522
1020.58        2.841724
1020.95        1.422865
1021.33      -0.9286596
1021.71       -3.066854
1022.09       -3.978045
1022.46       -3.870238
1022.84       -2.792248
1023.22      -0.7311983
1023.60         2.10248
1023.97        5.584271
1024.35        9.165951
1024.73        11.60462
